Folder: Plot-Label-EDX-Data-in-Matlab/src

Note: README.md
# Plot EDX Data

Plots EDX Data from either msa or csv files. Execute run_func with the filename and elements+transitions that should be plotted. 
peak positions are read in with read_NIST_peak_information and the spectra is plotted and labeled with label_spectra.

File: BDZA 11 6KV spot 2.msa
#FORMAT      : EMSA/MAS Spectral Data File
#VERSION     : 1.0
#TITLE       : BDZA 11 6KV spot 2
#DATE        : 14-AUG-2024
#TIME        : 14:40
#OWNER       : Unknown
#NPOINTS     : 4096
#NCOLUMNS    : 1
#XUNITS      : eV
#YUNITS      : counts
#DATATYPE    : Y
#XPERCHAN    : 9.95025
#OFFSET      : 0
#BEAMKV      : 6
#SIGNALTYPE  : EDS
#ELEVANGLE   : 35
#AZIMANGLE   : 0
#LIVETIME    : 20
#PROBECUR    : 1
#TAUWIND     : 0
#TDEADLYR    : 0
#TACTLYR     : 0.05
#TALWIND     : 0.003
#CHOFFSET    : 0.0
#XLABEL      : Energy (eV)
#YLABEL      : Counts
##D2ELEMS    : [Aluminum, Silicon, Iron]
#SPECTRUM    :
0,
429,
1688,
1515,
3315,
4259,
1257,
1336,
894,
2236,
2040,
11861,
1250,
760,
380,
329,
315,
290,
257,
218,
218,
256,
176,
178,
181,
136,
128,
108,
99,
83,
70,
78,
77,
66,
44,
57,
58,
44,
39,
14,
10,
11,
9,
2,
1,
0,
1,
1,
1,
0,
0,
0,
0,
0,
0,
0,
0,
0,
0,
0,
0,
0,
0,
0,
0,
0,
0,
0,
0,
0,
0,
0,
0,
0,
0,
0,
0,
0,
0,
0,
0,
0,
0,
0,
0,
0,
0,
0,
0,
0,
0,
0,
0,
0,
0,
0,
0,
0,
0,
0,
0,
0,
0,
0,
0,
0,
0,
0,
0,
0,
0,
0,
0,
0,
0,
0,
0,
0,
0,
0,
0,
0,
0,
0,
0,
0,
0,
0,
0,
0,
0,
0,
0,
0,
0,
0,
0,
0,
0,
0,
0,
0,
0,
0,
0,
0,
0,
0,
0,
0,
0,
0,
0,
0,
0,
0,
0,
0,
0,
0,
0,
0,
0,
0,
0,
0,
0,
0,
0,
0,
0,
0,
0,
0,
0,
0,
0,
0,
0,
0,
0,
0,
0,
0,
0,
0,
0,
0,
0,
0,
0,
0,
0,
0,
0,
0,
0,
0,
0,
0,
0,
0,
0,
0,
0,
0,
0,
0,
0,
0,
0,
0,
0,
0,
0,
0,
0,
0,
0,
0,
0,
0,
0,
0,
0,
0,
0,
0,
0,
0,
0,
0,
0,
0,
0,
0,
0,
0,
0,
0,
0,
0,
0,
0,
0,
0,
0,
0,
0,
0,
0,
0,
0,
0,
0,
0,
0,
0,
0,
0,
0,
0,
0,
0,
0,
0,
0,
0,
0,
0,
0,
0,
0,
0,
0,
0,
0,
0,
0,
0,
0,
0,
0,
0,
0,
0,
0,
0,
0,
0,
0,
0,
0,
0,
#ENDOFDATA   :